File: NBCO/NBCO_XRD.txt
     Angle,       PSD,
   9.99821,        29,
   10.0589,        36,
   10.1196,        41,
   10.1803,        20,
   10.2411,        35,
   10.3018,        33,
   10.3625,        34,
   10.4232,        33,
   10.4839,        36,
   10.5446,        24,
   10.6053,        31,
    10.666,        33,
   10.7268,        30,
   10.7875,        34,
   10.8482,        21,
   10.9089,        40,
   10.9696,        33,
   11.0303,        31,
    11.091,        43,
   11.1517,        40,
   11.2124,        39,
   11.2732,        29,
   11.3339,        37,
   11.3946,        32,
   11.4553,        45,
    11.516,        55,
   11.5767,        44,
   11.6374,        23,
   11.6981,        30,
   11.7588,        26,
   11.8196,        28,
   11.8803,        42,
    11.941,        38,
   12.0017,        26,
   12.0624,        40,
   12.1231,        27,
   12.1838,        31,
   12.2445,        34,
   12.3052,        39,
    12.366,        38,
   12.4267,        29,
   12.4874,        37,
   12.5481,        31,
   12.6088,        40,
   12.6695,        28,
   12.7302,        32,
   12.7909,        30,
   12.8517,        34,
   12.9124,        28,
   12.9731,        37,
   13.0338,        26,
   13.0945,        31,
   13.1552,        37,
   13.2159,        34,
   13.2766,        38,
   13.3373,        26,
   13.3981,        28,
   13.4588,        34,
   13.5195,        34,
   13.5802,        25,
   13.6409,        23,
   13.7016,        23,
   13.7623,        34,
    13.823,        36,
   13.8837,        24,
   13.9445,        46,
   14.0052,        23,
   14.0659,        33,
   14.1266,        32,
   14.1873,        27,
    14.248,        44,
   14.3087,        22,
   14.3694,        23,
   14.4302,        35,
   14.4909,        25,
   14.5516,        23,
   14.6123,        36,
    14.673,        24,
   14.7337,        43,
   14.7944,        27,
   14.8551,        30,
   14.9158,        43,
   14.9766,        42,
   15.0373,        30,
    15.098,        31,
   15.1587,        21,
   15.2194,        32,
   15.2801,        30,
   15.3408,        25,
   15.4015,        31,
   15.4622,        24,
    15.523,        29,
   15.5837,        29,
   15.6444,        37,
   15.7051,        30,
   15.7658,        25,
   15.8265,        22,
   15.8872,        32,
   15.9479,        32,
   16.0086,        20,
   16.0694,        30,
   16.1301,        34,
   16.1908,        43,
   16.2515,        21,
   16.3122,        39,
   16.3729,        36,
   16.4336,        29,
   16.4943,        30,
   16.5551,        22,
   16.6158,        32,
   16.6765,        19,
   16.7372,        44,
   16.7979,        27,
   16.8586,        19,
   16.9193,        41,
     16.98,        32,
   17.0407,        34,
   17.1015,        21,
   17.1622,        28,
   17.2229,        33,
   17.2836,        22,
   17.3443,        21,
    17.405,        20,
   17.4657,        35,
   17.5264,        25,
   17.5871,        26,
   17.6479,        33,
   17.7086,        30,
   17.7693,        26,
     17.83,        29,
   17.8907,        31,
   17.9514,        41,
   18.0121,        38,
   18.0728,        24,
   18.1336,        34,
   18.1943,        34,
    18.255,        34,
   18.3157,        29,
   18.3764,        22,
   18.4371,        29,
   18.4978,        28,
   18.5585,        29,
   18.6192,        27,
     18.68,        41,
   18.7407,        39,
   18.8014,        29,
   18.8621,        37,
   18.9228,        34,
   18.9835,        18,
   19.0442,        24,
   19.1049,        26,
   19.1656,        23,
   19.2264,        34,
   19.2871,        31,
   19.3478,        28,
   19.4085,        37,
   19.4692,        17,
   19.5299,        20,
   19.5906,        25,
   19.6513,        47,
    19.712,        28,
   19.7728,        25,
   19.8335,        36,
   19.8942,        31,
   19.9549,        25,
   20.0156,        29,
   20.0763,        23,
    20.137,        19,
   20.1977,        24,
   20.2585,        31,
   20.3192,        29,
   20.3799,        30,
   20.4406,        33,
   20.5013,        32,
    20.562,        32,
   20.6227,        35,
   20.6834,        26,
   20.7441,        30,
   20.8049,        19,
   20.8656,        26,
   20.9263,        32,
    20.987,        33,
   21.0477,        26,
   21.1084,        38,
   21.1691,        32,
   21.2298,        29,
   21.2905,        33,
   21.3513,        30,
    21.412,        24,
   21.4727,        32,
   21.5334,        22,
   21.5941,        29,
   21.6548,        45,
   21.7155,        44,
   21.7762,        44,
   21.8369,        40,
   21.8977,        29,
   21.9584,        35,
   22.0191,        23,
   22.0798,        41,
   22.1405,        30,
   22.2012,        29,
   22.2619,        44,
   22.3226,        36,
   22.3834,        41,
   22.4441,        63,
   22.5048,        96,
   22.5655,       102,
   22.6262,        75,
   22.6869,       145,
   22.7476,       216,
   22.8083,       141,
    22.869,        63,
   22.9298,        37,
   22.9905,        28,
   23.0512,        28,
   23.1119,        29,
   23.1726,        46,
   23.2333,        26,
    23.294,        35,
   23.3547,        30,
   23.4154,        25,
   23.4762,        26,
   23.5369,        37,
   23.5976,        32,
   23.6583,        29,
    23.719,        45,
   23.7797,        31,
   23.8404,        34,
   23.9011,        34,
   23.9619,        67,
   24.0226,        53,
   24.0833,        29,
    24.144,        28,
   24.2047,        23,
   24.2654,        36,
   24.3261,        32,
   24.3868,        35,
   24.4475,        30,
   24.5083,        28,
    24.569,        39,
   24.6297,        29,
   24.6904,        24,
   24.7511,        29,
   24.8118,        37,
   24.8725,        29,
   24.9332,        41,
   24.9939,        28,
   25.0547,        26,
   25.1154,        30,
   25.1761,        33,
   25.2368,        24,
   25.2975,        38,
   25.3582,        37,
   25.4189,        39,
   25.4796,        30,
   25.5403,        31,
   25.6011,        34,
   25.6618,        29,
   25.7225,        29,
   25.7832,        17,
   25.8439,        33,
   25.9046,        31,
   25.9653,        25,
    26.026,        25,
   26.0868,        29,
   26.1475,        27,
   26.2082,        31,
   26.2689,        37,
   26.3296,        37,
   26.3903,        26,
    26.451,        37,
   26.5117,        27,
   26.5724,        29,
   26.6332,        34,
   26.6939,        39,
   26.7546,        28,
   26.8153,        35,
    26.876,        39,
   26.9367,        27,
   26.9974,        35,
   27.0581,        41,
   27.1188,        41,
   27.1796,        42,
   27.2403,        38,
    27.301,        61,
   27.3617,        67,
   27.4224,        54,
   27.4831,        43,
   27.5438,        36,
   27.6045,        32,
   27.6653,        34,
    27.726,        34,
   27.7867,        22,
   27.8474,        32,
   27.9081,        40,
   27.9688,        24,
   28.0295,        30,
   28.0902,        31,
   28.1509,        21,
   28.2117,        34,
   28.2724,        33,
   28.3331,        39,
   28.3938,        86,
   28.4545,        79,
   28.5152,        53,
   28.5759,        39,
   28.6366,        30,
   28.6973,        37,
   28.7581,        30,
   28.8188,        40,
   28.8795,        40,
   28.9402,        31,
   29.0009,        37,
   29.0616,        38,
   29.1223,        28,
    29.183,        57,
   29.2437,       102,
   29.3045,        82,
   29.3652,        56,
   29.4259,        39,
   29.4866,        34,
   29.5473,        35,
    29.608,        34,
   29.6687,        27,
   29.7294,        30,
   29.7902,        38,
   29.8509,        27,
   29.9116,        33,
   29.9723,        54,
    30.033,        43,
   30.0937,        73,
   30.1544,        63,
   30.2151,        35,
   30.2758,        37,
   30.3366,        27,
   30.3973,        31,
    30.458,        40,
   30.5187,        32,
   30.5794,        18,
   30.6401,        35,
   30.7008,        36,
   30.7615,        33,
   30.8222,        39,
    30.883,        43,
   30.9437,        31,
   31.0044,        35,
   31.0651,        30,
   31.1258,        45,
   31.1865,        30,
   31.2472,        41,
   31.3079,        38,
   31.3687,        52,
   31.4294,        41,
   31.4901,        49,
   31.5508,        60,
   31.6115,        52,
   31.6722,        49,
   31.7329,        56,
   31.7936,        44,
   31.8543,        65,
   31.9151,        72,
   31.9758,        74,
   32.0365,       104,
   32.0972,       154,
   32.1579,       350,
   32.2186,      1020,
   32.2793,       956,
     32.34,       898,
   32.4007,       997,
   32.4615,       532,
   32.5222,       161,
   32.5829,        88,
   32.6436,        68,
   32.7043,        42,
    32.765,        68,
   32.8257,        46,
   32.8864,        47,
   32.9471,        31,
   33.0079,        38,
   33.0686,        43,
   33.1293,        26,
     33.19,        43,
   33.2507,        29,
   33.3114,        54,
   33.3721,        46,
   33.4328,        31,
   33.4936,        26,
   33.5543,        37,
    33.615,        42,
   33.6757,        41,
   33.7364,        32,
   33.7971,        43,
   33.8578,        43,
   33.9185,        58,
   33.9792,        36,
     34.04,        21,
   34.1007,        39,
   34.1614,        36,
   34.2221,        42,
   34.2828,        42,
   34.3435,        33,
   34.4042,        36,
   34.4649,        39,
   34.5256,        31,
   34.5864,        34,
   34.6471,        38,
   34.7078,        38,
   34.7685,        39,
   34.8292,        38,
   34.8899,        34,
   34.9506,        39,
   35.0113,        33,
   35.0721,        28,
   35.1328,        41,
   35.1935,        36,
   35.2542,        24,
   35.3149,        30,
   35.3756,        30,
   35.4363,        34,
    35.497,        53,
   35.5577,        42,
   35.6185,        35,
   35.6792,        29,
   35.7399,        41,
   35.8006,        29,
   35.8613,        48,
    35.922,        33,
   35.9827,        23,
   36.0434,        41,
   36.1041,        34,
   36.1649,        29,
   36.2256,        31,
   36.2863,        31,
    36.347,        33,
   36.4077,        38,
   36.4684,        34,
   36.5291,        30,
   36.5898,        18,
   36.6505,        32,
   36.7113,        33,
    36.772,        31,
   36.8327,        24,
   36.8934,        23,
   36.9541,        41,
   37.0148,        34,
   37.0755,        28,
   37.1362,        29,
    37.197,        36,
   37.2577,        29,
   37.3184,        38,
   37.3791,        43,
   37.4398,        30,
   37.5005,        30,
   37.5612,        33,
   37.6219,        38,
   37.6826,        34,
   37.7434,        30,
   37.8041,        45,
   37.8648,        38,
   37.9255,        40,
   37.9862,        64,
   38.0469,        96,
   38.1076,       126,
   38.1683,       124,
    38.229,       115,
   38.2898,        60,
   38.3505,        55,
   38.4112,        47,
   38.4719,        42,
   38.5326,        36,
   38.5933,        41,
    38.654,        43,
   38.7147,        43,
   38.7755,        46,
   38.8362,        44,
   38.8969,        45,
   38.9576,        46,
   39.0183,        30,
    39.079,        40,
   39.1397,        31,
   39.2004,        33,
   39.2611,        20,
   39.3219,        31,
   39.3826,        46,
   39.4433,        30,
    39.504,        37,
   39.5647,        38,
   39.6254,        47,
   39.6861,        54,
   39.7468,        80,
   39.8075,       188,
   39.8683,       194,
    39.929,       120,
   39.9897,        98,
   40.0504,        59,
   40.1111,        50,
   40.1718,        46,
   40.2325,        28,
   40.2932,        29,
   40.3539,        34,
   40.4147,        42,
   40.4754,        33,
   40.5361,        26,
   40.5968,        40,
   40.6575,        27,
   40.7182,        31,
   40.7789,        43,
   40.8396,        28,
   40.9004,        24,
   40.9611,        28,
   41.0218,        31,
   41.0825,        22,
   41.1432,        32,
   41.2039,        32,
   41.2646,        38,
   41.3253,        30,
    41.386,        25,
   41.4468,        29,
   41.5075,        32,
   41.5682,        40,
   41.6289,        26,
   41.6896,        31,
   41.7503,        32,
    41.811,        49,
   41.8717,        37,
   41.9324,        43,
   41.9932,        38,
   42.0539,        25,
   42.1146,        33,
   42.1753,        32,
    42.236,        27,
   42.2967,        34,
   42.3574,        33,
   42.4181,        27,
   42.4788,        42,
   42.5396,        30,
   42.6003,        45,
    42.661,        32,
   42.7217,        31,
   42.7824,        27,
   42.8431,        27,
   42.9038,        37,
   42.9645,        31,
   43.0253,        30,
    43.086,        45,
   43.1467,        35,
   43.2074,        41,
   43.2681,        31,
   43.3288,        24,
   43.3895,        31,
   43.4502,        35,
   43.5109,        36,
   43.5717,        27,
   43.6324,        42,
   43.6931,        36,
   43.7538,        39,
   43.8145,        29,
   43.8752,        39,
   43.9359,        29,
   43.9966,        25,
   44.0573,        40,
   44.1181,        26,
   44.1788,        35,
   44.2395,        38,
   44.3002,        49,
   44.3609,        44,
   44.4216,        34,
   44.4823,        26,
    44.543,        36,
   44.6038,        40,
   44.6645,        37,
   44.7252,        29,
   44.7859,        37,
   44.8466,        52,
   44.9073,        50,
    44.968,        35,
   45.0287,        43,
   45.0894,        39,
   45.1502,        33,
   45.2109,        32,
   45.2716,        29,
   45.3323,        24,
    45.393,        29,
   45.4537,        29,
   45.5144,        32,
   45.5751,        34,
   45.6358,        28,
   45.6966,        30,
   45.7573,        35,
    45.818,        33,
   45.8787,        43,
   45.9394,        78,
   46.0001,        96,
   46.0608,        84,
   46.1215,       109,
   46.1822,        75,
    46.243,        65,
   46.3037,        69,
   46.3644,       101,
   46.4251,       210,
   46.4858,       209,
   46.5465,       135,
   46.6072,       143,
   46.6679,        60,
   46.7287,        54,
   46.7894,        46,
   46.8501,        37,
   46.9108,        32,
   46.9715,        28,
   47.0322,        33,
   47.0929,        32,
   47.1536,        39,
   47.2143,        27,
   47.2751,        44,
   47.3358,        34,
   47.3965,        34,
   47.4572,        33,
   47.5179,        32,
   47.5786,        30,
   47.6393,        28,
      47.7,        22,
   47.7607,        30,
   47.8215,        31,
   47.8822,        30,
   47.9429,        26,
   48.0036,        31,
   48.0643,        24,
    48.125,        28,
   48.1857,        40,
   48.2464,        28,
   48.3072,        32,
   48.3679,        29,
   48.4286,        29,
   48.4893,        20,
     48.55,        24,
   48.6107,        20,
   48.6714,        34,
   48.7321,        29,
   48.7928,        27,
   48.8536,        34,
   48.9143,        24,
    48.975,        35,
   49.0357,        32,
   49.0964,        24,
   49.1571,        28,
   49.2178,        35,
   49.2785,        40,
   49.3392,        30,
      49.4,        35,
   49.4607,        29,
   49.5214,        21,
   49.5821,        25,
   49.6428,        29,
   49.7035,        31,
   49.7642,        29,
   49.8249,        21,
   49.8856,        27,
   49.9464,        26,
   50.0071,        36,
   50.0678,        38,
   50.1285,        21,
   50.1892,        34,
   50.2499,        35,
   50.3106,        31,
   50.3713,        29,
   50.4321,        24,
   50.4928,        32,
   50.5535,        24,
   50.6142,        31,
   50.6749,        29,
   50.7356,        45,
   50.7963,        33,
    50.857,        40,
   50.9177,        35,
   50.9785,        30,
   51.0392,        22,
   51.0999,        18,
   51.1606,        33,
   51.2213,        35,
    51.282,        27,
   51.3427,        34,
   51.4034,        36,
   51.4641,        25,
   51.5249,        35,
   51.5856,        23,
   51.6463,        26,
    51.707,        31,
   51.7677,        35,
   51.8284,        30,
   51.8891,        40,
   51.9498,        48,
   52.0106,        48,
   52.0713,        27,
    52.132,        45,
   52.1927,        46,
   52.2534,        51,
   52.3141,        79,
   52.3748,        51,
   52.4355,        53,
   52.4962,        55,
    52.557,        40,
   52.6177,        29,
   52.6784,        28,
   52.7391,        27,
   52.7998,        30,
   52.8605,        23,
   52.9212,        37,
   52.9819,        24,
   53.0426,        27,
   53.1034,        29,
   53.1641,        28,
   53.2248,        33,
   53.2855,        21,
   53.3462,        31,
   53.4069,        25,
   53.4676,        37,
   53.5283,        28,
    53.589,        30,
   53.6498,        37,
   53.7105,        25,
   53.7712,        35,
   53.8319,        26,
   53.8926,        37,
   53.9533,        19,
    54.014,        33,
   54.0747,        22,
   54.1355,        34,
   54.1962,        44,
   54.2569,        46,
   54.3176,        36,
   54.3783,        36,
    54.439,        46,
   54.4997,        41,
   54.5604,        23,
   54.6211,        42,
   54.6819,        33,
   54.7426,        37,
   54.8033,        30,
    54.864,        32,
   54.9247,        29,
   54.9854,        31,
   55.0461,        29,
   55.1068,        21,
   55.1675,        34,
   55.2283,        26,
    55.289,        39,
   55.3497,        36,
   55.4104,        23,
   55.4711,        27,
   55.5318,        21,
   55.5925,        23,
   55.6532,        22,
    55.714,        26,
   55.7747,        31,
   55.8354,        35,
   55.8961,        28,
   55.9568,        21,
   56.0175,        28,
   56.0782,        32,
   56.1389,        29,
   56.1996,        29,
   56.2604,        20,
   56.3211,        32,
   56.3818,        38,
   56.4425,        28,
   56.5032,        33,
   56.5639,        38,
   56.6246,        43,
   56.6853,        34,
    56.746,        31,
   56.8068,        29,
   56.8675,        30,
   56.9282,        38,
   56.9889,        41,
   57.0496,        42,
   57.1103,        40,
    57.171,        39,
   57.2317,        51,
   57.2924,        68,
   57.3532,        93,
   57.4139,        99,
   57.4746,       107,
   57.5353,       105,
    57.596,       145,
   57.6567,       268,
   57.7174,       259,
   57.7781,       156,
   57.8389,       177,
   57.8996,        94,
   57.9603,        51,
    58.021,        55,
   58.0817,        45,
   58.1424,        37,
   58.2031,        36,
   58.2638,        43,
   58.3245,        25,
   58.3853,        41,
    58.446,        30,
   58.5067,        30,
   58.5674,        29,
   58.6281,        33,
   58.6888,        26,
   58.7495,        34,
   58.8102,        25,
   58.8709,        27,
   58.9317,        26,
   58.9924,        29,
   59.0531,        34,
   59.1138,        31,
   59.1745,        32,
   59.2352,        29,
   59.2959,        34,
   59.3566,        28,
   59.4173,        29,
   59.4781,        41,
   59.5388,        49,
   59.5995,        46,
   59.6602,        33,
   59.7209,        35,
   59.7816,        37,
   59.8423,        27,
    59.903,        26,
   59.9638,        30,
   60.0245,        28,
   60.0852,        28,
   60.1459,        19,
   60.2066,        30,
   60.2673,        22,
    60.328,        25,
   60.3887,        22,
   60.4494,        26,
   60.5102,        20,
   60.5709,        24,
   60.6316,        18,
   60.6923,        29,
    60.753,        28,
   60.8137,        23,
   60.8744,        23,
   60.9351,        26,
   60.9958,        31,
   61.0566,        29,
   61.1173,        28,
    61.178,        23,
   61.2387,        32,
   61.2994,        28,
   61.3601,        29,
   61.4208,        30,
   61.4815,        42,
   61.5423,        53,
    61.603,        62,
   61.6637,        61,
   61.7244,        54,
   61.7851,        37,
   61.8458,        36,
   61.9065,        35,
   61.9672,        33,
   62.0279,        30,
   62.0887,        25,
   62.1494,        20,
   62.2101,        27,
   62.2708,        28,
   62.3315,        25,
   62.3922,        23,
   62.4529,        22,
   62.5136,        26,
   62.5743,        30,
   62.6351,        24,
   62.6958,        32,
   62.7565,        17,
   62.8172,        23,
   62.8779,        29,
   62.9386,        22,
   62.9993,        23,
     63.06,        27,
   63.1207,        15,
   63.1815,        19,
   63.2422,        25,
   63.3029,        25,
   63.3636,        18,
   63.4243,        28,
    63.485,        26,
   63.5457,        29,
   63.6064,        27,
   63.6672,        25,
   63.7279,        19,
   63.7886,        27,
   63.8493,        20,
     63.91,        24,
   63.9707,        31,
   64.0314,        25,
   64.0921,        20,
   64.1528,        26,
   64.2136,        26,
   64.2743,        30,
    64.335,        19,
   64.3957,        20,
   64.4564,        23,
   64.5171,        32,
   64.5778,        34,
   64.6385,        29,
   64.6992,        38,
     64.76,        37,
   64.8207,        39,
   64.8814,        28,
   64.9421,        23,
   65.0028,        27,
   65.0635,        32,
   65.1242,        27,
   65.1849,        23,
   65.2457,        31,
   65.3064,        25,
   65.3671,        22,
   65.4278,        24,
   65.4885,        19,
   65.5492,        29,
   65.6099,        24,
   65.6706,        33,
   65.7313,        22,
   65.7921,        25,
   65.8528,        23,
   65.9135,        30,
   65.9742,        22,
   66.0349,        21,
   66.0956,        18,
   66.1563,        23,
    66.217,        27,
   66.2777,        31,
   66.3385,        27,
   66.3992,        21,
   66.4599,        22,
   66.5206,        26,
   66.5813,        23,
    66.642,        23,
   66.7027,        21,
   66.7634,        25,
   66.8241,        23,
   66.8849,        23,
   66.9456,        23,
   67.0063,        25,
    67.067,        30,
   67.1277,        27,
   67.1884,        29,
   67.2491,        31,
   67.3098,        35,
   67.3706,        44,
   67.4313,        55,
    67.492,        71,
   67.5527,        56,
   67.6134,        54,
   67.6741,        62,
   67.7348,        69,
   67.7955,        90,
   67.8562,        76,
    67.917,        44,
   67.9777,        47,
   68.0384,        47,
   68.0991,        31,
   68.1598,        27,
   68.2205,        30,
   68.2812,        29,
   68.3419,        28,
   68.4026,        23,
   68.4634,        19,
   68.5241,        25,
   68.5848,        21,
   68.6455,        22,
   68.7062,        28,
   68.7669,        21,
   68.8276,        20,
   68.8883,        19,
   68.9491,        28,
   69.0098,        20,
   69.0705,        25,
   69.1312,        20,
   69.1919,        25,
   69.2526,        21,
   69.3133,        29,
    69.374,        23,
   69.4347,        27,
   69.4955,        18,
   69.5562,        28,
   69.6169,        24,
   69.6776,        19,
   69.7383,        24,
    69.799,        15,
   69.8597,        21,
   69.9204,        27,
   69.9811,        20,
   70.0419,        20,
   70.1026,        25,
   70.1633,        17,
    70.224,        13,
   70.2847,        19,
   70.3454,        25,
   70.4061,        21,
   70.4668,        22,
   70.5275,        13,
   70.5883,        22,
    70.649,        23,
   70.7097,        18,
   70.7704,        24,
   70.8311,        22,
   70.8918,        22,
   70.9525,        20,
   71.0132,        22,
    71.074,        21,
   71.1347,        16,
   71.1954,        21,
   71.2561,        22,
   71.3168,        15,
   71.3775,        20,
   71.4382,        19,
   71.4989,        16,
   71.5596,        15,
   71.6204,        15,
   71.6811,        18,
   71.7418,        19,
   71.8025,        20,
   71.8632,        11,
   71.9239,        21,
   71.9846,        23,
   72.0453,        29,
    72.106,        25,
   72.1668,        23,
   72.2275,        29,
   72.2882,        35,
   72.3489,        28,
   72.4096,        30,
   72.4703,        28,
    72.531,        21,
   72.5917,        11,
   72.6525,        23,
   72.7132,        23,
   72.7739,        27,
   72.8346,        24,
   72.8953,        17,
    72.956,        28,
   73.0167,        20,
   73.0774,        17,
   73.1381,        19,
   73.1989,        20,
   73.2596,        22,
   73.3203,        25,
    73.381,        13,
   73.4417,        22,
   73.5024,        25,
   73.5631,        23,
   73.6238,        19,
   73.6845,        13,
   73.7453,        22,
    73.806,        24,
   73.8667,        26,
   73.9274,        15,
   73.9881,        21,
   74.0488,        23,
   74.1095,        24,
   74.1702,        27,
   74.2309,        22,
   74.2917,        21,
   74.3524,        27,
   74.4131,        28,
   74.4738,        20,
   74.5345,        23,
   74.5952,        16,
   74.6559,        17,
   74.7166,        19,
   74.7774,        22,
   74.8381,        18,
   74.8988,        19,
   74.9595,        23,
   75.0202,        31,
   75.0809,        20,
   75.1416,        22,
   75.2023,        18,
    75.263,        12,
   75.3238,        13,
   75.3845,        17,
   75.4452,        18,
   75.5059,        16,
   75.5666,        22,
   75.6273,        12,
    75.688,        18,
   75.7487,        19,
   75.8094,        24,
   75.8702,        20,
   75.9309,        23,
   75.9916,        22,
   76.0523,        20,
    76.113,        24,
   76.1737,        25,
   76.2344,        19,
   76.2951,        21,
   76.3559,        22,
   76.4166,        29,
   76.4773,        28,
    76.538,        26,
   76.5987,        20,
   76.6594,        19,
   76.7201,        17,
   76.7808,        23,
   76.8415,        23,
   76.9023,        19,
    76.963,        28,
   77.0237,        38,
   77.0844,        61,
   77.1451,        58,
   77.2058,        47,
   77.2665,        41,
   77.3272,        39,
   77.3879,        45,
   77.4487,        40,
   77.5094,        26,
   77.5701,        20,
   77.6308,        19,
   77.6915,        21,
   77.7522,        21,
   77.8129,        21,
   77.8736,        12,
   77.9343,        21,
   77.9951,        17,
   78.0558,        19,
   78.1165,        13,
   78.1772,        15,
   78.2379,        18,
   78.2986,        21,
   78.3593,        20,
     78.42,        23,
   78.4808,        12,
   78.5415,        17,
   78.6022,        20,
   78.6629,        23,
   78.7236,        26,
   78.7843,        25,
    78.845,        17,
   78.9057,        17,
   78.9664,        15,
   79.0272,        28,
   79.0879,        14,
   79.1486,        19,
   79.2093,        16,
     79.27,        17,
   79.3307,        21,
   79.3914,        15,
   79.4521,        15,
   79.5128,        19,
   79.5736,        17,
   79.6343,        13,
    79.695,        21,
   79.7557,        19,
   79.8164,        17,
   79.8771,        14,
   79.9378,        14,
   79.9985,        16,
   80.0592,        23,
     80.12,        22,
   80.1807,        23,
   80.2414,        18,
   80.3021,        16,
   80.3628,        19,
   80.4235,        26,
   80.4842,        19,
   80.5449,        23,
   80.6057,        23,
   80.6664,        18,
   80.7271,        21,
   80.7878,        19,
   80.8485,        15,
   80.9092,        10,
   80.9699,        24,
   81.0306,        19,
   81.0913,        15,
   81.1521,        15,
   81.2128,        25,
   81.2735,        19,
   81.3342,        11,
   81.3949,        19,
   81.4556,        21,
   81.5163,        17,
    81.577,        23,
   81.6377,        28,
   81.6985,        28,
   81.7592,        20,
   81.8199,        26,
   81.8806,        17,
   81.9413,        16,
    82.002,        12,
   82.0627,        16,
   82.1234,        19,
   82.1842,        10,
   82.2449,        21,
   82.3056,        21,
   82.3663,        10,
    82.427,        11,
   82.4877,        15,
   82.5484,        17,
   82.6091,        11,
   82.6698,        21,
   82.7306,        13,
   82.7913,        17,
    82.852,        21,
   82.9127,        14,
   82.9734,        15,
   83.0341,        19,
   83.0948,        23,
   83.1555,        28,
   83.2162,        14,
    83.277,        12,
   83.3377,        13,
   83.3984,        11,
   83.4591,        13,
   83.5198,        13,
   83.5805,        14,
   83.6412,        15,
   83.7019,        18,
   83.7626,        11,
   83.8234,        21,
   83.8841,        17,
   83.9448,        10,
   84.0055,        14,
   84.0662,        13,
   84.1269,        18,
   84.1876,        10,
   84.2483,        12,
   84.3091,        12,
   84.3698,        17,
   84.4305,        16,
   84.4912,        10,
   84.5519,        19,
   84.6126,        18,
   84.6733,        12,
    84.734,        13,
   84.7947,        21,
   84.8555,        19,
   84.9162,        12,
   84.9769,        18,
   85.0376,        10,
   85.0983,        17,
    85.159,        19,
   85.2197,        15,
   85.2804,        15,
   85.3411,        17,
   85.4019,        18,
   85.4626,        21,
   85.5233,        15,
    85.584,        16,
   85.6447,        17,
   85.7054,        22,
   85.7661,        37,
   85.8268,        26,
   85.8876,        39,
   85.9483,        25,
    86.009,        23,
   86.0697,        23,
   86.1304,        28,
   86.1911,        18,
   86.2518,        18,
   86.3125,        20,
   86.3732,        17,
    86.434,        16,
   86.4947,        18,
   86.5554,        16,
   86.6161,        22,
   86.6768,        17,
   86.7375,        12,
   86.7982,         4,
   86.8589,         7,
   86.9196,        22,
   86.9804,        19,
   87.0411,        14,
   87.1018,         7,
   87.1625,        17,
   87.2232,        16,
   87.2839,        14,
   87.3446,        11,
   87.4053,         9,
    87.466,        12,
   87.5268,        12,
   87.5875,         6,
   87.6482,        16,
   87.7089,         5,
   87.7696,        15,
   87.8303,        14,
    87.891,        10,
   87.9517,        13,
   88.0125,        14,
   88.0732,         9,
   88.1339,         8,
   88.1946,        15,
   88.2553,        13,
    88.316,        10,
   88.3767,         8,
   88.4374,        10,
   88.4981,        20,
   88.5589,        11,
   88.6196,        14,
   88.6803,         5,
    88.741,        11,
   88.8017,        12,
   88.8624,        17,
   88.9231,        12,
   88.9838,         9,
   89.0445,        10,
   89.1053,        16,
    89.166,        16,
   89.2267,         9,
   89.2874,         6,
   89.3481,        14,
   89.4088,        14,
   89.4695,        11,
   89.5302,         8,
    89.591,        15,
   89.6517,        10,
   89.7124,        15,
   89.7731,        14,
   89.8338,        13,
   89.8945,        12,
   89.9552,        15,
   90.0159,         7,
    90.026,        18,